File: docs/data/txt/cary500uvvis.csv
Baseline 100%T,,Baseline 0%T,,blank,,blank2,,p1-fresh-glass,,p5-fresh-glass,,ir hot mirror face1,,ir hot mirror face2,,
Wavelength (nm),%T,Wavelength (nm),%T,Wavelength (nm),%T,Wavelength (nm),%T,Wavelength (nm),%T,Wavelength (nm),%T,Wavelength (nm),%T,Wavelength (nm),%T,
3000,104.126,3000,-0.155711,3000,99.984,3000,99.8904,3000,2.32749,3000,2.46369,3000,51.1867,3000,51.0814,
2994,104.03,2994,-0.15342,2994,99.9832,2994,99.8991,2994,2.1863,2994,2.59519,2994,50.9475,2994,50.842,
2988,103.922,2988,-0.150292,2988,99.9793,2988,99.8944,2988,2.08258,2988,2.69091,2988,50.7132,2988,50.6162,
2982,103.819,2982,-0.144058,2982,99.9821,2982,99.8954,2982,2.01136,2982,2.76242,2982,50.4794,2982,50.3786,
2976,103.714,2976,-0.135963,2976,99.9861,2976,99.8862,2976,1.97425,2976,2.76985,2976,50.2355,2976,50.1242,
2970,103.611,2970,-0.12489,2970,99.984,2970,99.8994,2970,1.9488,2970,2.71181,2970,49.9826,2970,49.8749,
2964,103.464,2964,-0.124896,2964,100.005,2964,99.9153,2964,2.01436,2964,2.62354,2964,49.764,2964,49.6522,
2958,103.345,2958,-0.112291,2958,99.9891,2958,99.8948,2958,2.06682,2958,2.45622,2958,49.5236,2958,49.4179,
2952,103.217,2952,-0.103614,2952,99.9932,2952,99.8881,2952,2.14646,2952,2.28433,2952,49.2961,2952,49.1995,
2946,103.073,2946,-0.10508,2946,99.9711,2946,99.8813,2946,2.25062,2946,2.09102,2946,49.0825,2946,48.9849,
2940,102.93,2940,-0.0941897,2940,99.9797,2940,99.8943,2940,2.34893,2940,1.9016,2940,48.8818,2940,48.7873,
2934,102.775,2934,-0.0947117,2934,99.9838,2934,99.8916,2934,2.40038,2934,1.75245,2934,48.7022,2934,48.6087,
2928,102.646,2928,-0.0898267,2928,99.9881,2928,99.8884,2928,2.37644,2928,1.61032,2928,48.5421,2928,48.448,
2922,102.493,2922,-0.0860735,2922,99.9849,2922,99.8892,2922,2.28491,2922,1.49535,2922,48.3909,2922,48.3062,
2916,102.379,2916,-0.0823691,2916,99.9874,2916,99.8936,2916,2.20651,2916,1.42963,2916,48.2587,2916,48.1718,
2910,102.27,2910,-0.0864061,2910,99.9856,2910,99.8931,2910,2.24927,2910,1.44887,2910,48.1433,2910,48.065,
2904,102.17,2904,-0.0760401,2904,99.9888,2904,99.9024,2904,2.37606,2904,1.53972,2904,48.0508,2904,47.9622,
2898,102.097,2898,-0.073535,2898,99.9867,2898,99.8858,2898,2.53714,2898,1.67763,2898,47.9506,2898,47.8802,
2892,102.058,2892,-0.0710526,2892,99.9779,2892,99.8914,2892,2.6125,2892,1.83378,2892,47.8913,2892,47.8188,
2886,102.049,2886,-0.0613529,2886,99.9737,2886,99.8825,2886,2.58866,2886,1.98261,2886,47.844,2886,47.7711,
2880,102.083,2880,-0.0642218,2880,99.9787,2880,99.8795,2880,2.50061,2880,2.13073,2880,47.7944,2880,47.7284,
2874,102.072,2874,-0.0568796,2874,99.9948,2874,99.8997,2874,2.35124,2874,2.28505,2874,47.8108,2874,47.7467,
2868,102.113,2868,-0.0564457,2868,99.9781,2868,99.8869,2868,2.20507,2868,2.4086,2868,47.8184,2868,47.7661,
2862,102.168,2862,-0.0561114,2862,99.9855,2862,99.8909,2862,2.06899,2862,2.50325,2862,47.8596,2862,47.8092,
2856,102.253,2856,-0.0494008,2856,99.9778,2856,99.8826,2856,1.95751,2856,2.54334,2856,47.9174,2856,47.8726,
2850,102.376,2850,-0.0483277,2850,99.9756,2850,99.8751,2850,1.89492,2850,2.53069,2850,47.9983,2850,47.954,
2844,102.466,2844,-0.047362,2844,99.9898,2844,99.8953,2844,1.87176,2844,2.46095,2844,48.1202,2844,48.0774,
2838,102.596,2838,-0.0498855,2838,100.007,2838,99.9355,2838,1.88958,2838,2.34475,2838,48.2795,2838,48.2452,
2832,102.749,2832,-0.0513742,2832,99.9829,2832,99.9266,2832,1.93202,2832,2.20186,2832,48.4512,2832,48.4171,
2826,102.899,2826,-0.049285,2826,99.9664,2826,99.9276,2826,1.994,2826,2.05854,2826,48.6532,2826,48.6223,
2820,103.079,2820,-0.0498005,2820,99.9881,2820,99.9467,2820,2.09192,2820,1.94599,2820,48.9051,2820,48.8693,
2814,103.287,2814,-0.0476464,2814,99.994,2814,99.9608,2814,2.21645,2814,1.85259,2814,49.1857,2814,49.1439,
2808,103.519,2808,-0.0520549,2808,99.9895,2808,99.9469,2808,2.39816,2808,1.81025,2808,49.5286,2808,49.4916,
2802,103.808,2802,-0.0476749,2802,99.9747,2802,99.9063,2802,2.62186,2802,1.81103,2802,49.9453,2802,49.9256,
2796,104.016,2796,-0.0458819,2796,100.028,2796,100.005,2796,2.85919,2796,1.85464,2796,50.4584,2796,50.4189,
2790,104.284,2790,-0.0499034,2790,100.003,2790,99.9682,2790,3.07554,2790,1.9392,2790,50.9656,2790,50.9254,
2784,104.605,2784,-0.0467913,2784,100,2784,99.966,2784,3.29091,2784,2.07765,2784,51.6575,2784,51.6559,
2778,104.892,2778,-0.0490519,2778,99.9969,2778,99.9508,2778,3.45433,2778,2.25375,2778,52.505,2778,52.4991,
2772,105.156,2772,-0.0480429,2772,100.006,2772,99.954,2772,3.51462,2772,2.44506,2772,53.3605,2772,53.3551,
2766,105.363,2766,-0.0488976,2766,99.9767,2766,99.9928,2766,3.49662,2766,2.67887,2766,54.4616,2766,54.4103,
2760,105.575,2760,-0.0473283,2760,100,2760,99.959,2760,3.44223,2760,3.01235,2760,55.8896,2760,55.8745,
2754,105.6,2754,-0.0470346,2754,100.031,2754,99.9485,2754,3.41014,2754,3.38675,2754,57.4256,2754,57.454,
2748,105.708,2748,-0.0471141,2748,100,2748,99.9689,2748,3.40232,2748,3.68997,2748,58.522,2748,58.5199,
2742,105.765,2742,-0.0498445,2742,99.9854,2742,99.9631,2742,3.43725,2742,4.05731,2742,59.9326,2742,59.9141,
2736,105.86,2736,-0.0482374,2736,99.9843,2736,99.9682,2736,3.55071,2736,4.58801,2736,62.2414,2736,62.2108,
2730,105.788,2730,-0.0453979,2730,100.021,2730,100.009,2730,3.66439,2730,4.8825,2730,63.8385,2730,63.8199,
2724,105.685,2724,-0.0535798,2724,99.9975,2724,99.979,2724,3.83268,2724,5.01291,2724,65.3251,2724,65.3454,
2718,105.824,2718,-0.0507658,2718,99.9839,2718,100.024,2718,4.17677,2718,5.07354,2718,67.9039,2718,67.8885,
2712,105.904,2712,-0.0467009,2712,100.005,2712,99.9885,2712,4.60798,2712,4.98098,2712,70.1979,2712,70.1535,
2706,105.933,2706,-0.0437561,2706,99.9549,2706,99.8932,2706,5.04704,2706,4.81174,2706,71.85,2706,71.871,
2700,105.875,2700,-0.0511332,2700,100.01,2700,99.9603,2700,5.47194,2700,4.65357,2700,73.2453,2700,73.256,
2694,105.86,2694,-0.0527065,2694,100.014,2694,99.9744,2694,5.98226,2694,4.50693,2694,74.1837,2694,74.1906,
2688,105.879,2688,-0.050823,2688,100.021,2688,99.9798,2688,6.50333,2688,4.41809,2688,74.8921,2688,74.8686,
2682,105.888,2682,-0.0506102,2682,99.9942,2682,99.9656,2682,6.89217,2682,4.42976,2682,75.334,2682,75.2549,
2676,105.887,2676,-0.0501448,2676,100.064,2676,100.027,2676,7.28634,2676,4.55744,2676,75.7573,2676,75.7416,
2670,106.033,2670,-0.0494677,2670,100.08,2670,99.9957,2670,7.63833,2670,4.9293,2670,76.1731,2670,76.173,
2664,106.179,2664,-0.0438723,2664,99.9676,2664,99.9631,2664,7.75685,2664,5.38771,2664,76.3857,2664,76.3239,
2658,106.185,2658,-0.0426492,2658,99.8752,2658,99.8449,2658,7.6927,2658,5.746,2658,76.4904,2658,76.4095,
2652,106.028,2652,-0.0489252,2652,99.9655,2652,99.9606,2652,7.49552,2652,6.1398,2652,76.9144,2652,76.8694,
2646,105.932,2646,-0.0468023,2646,99.9951,2646,99.9738,2646,7.07195,2646,6.57958,2646,77.2567,2646,77.2616,
2640,105.99,2640,-0.0456014,2640,100,2640,99.9755,2640,6.48306,2640,7.01398,2640,77.5826,2640,77.6104,
2634,105.94,2634,-0.053749,2634,100.022,2634,100.013,2634,6.05623,2634,7.23903,2634,77.8742,2634,77.8917,
2628,106.076,2628,-0.0537755,2628,100.005,2628,99.9982,2628,5.61409,2628,7.31653,2628,78.236,2628,78.2469,
2622,106.161,2622,-0.0503011,2622,99.997,2622,99.9896,2622,5.40638,2622,7.22652,2622,78.5576,2622,78.5667,
2616,106.142,2616,-0.0500883,2616,100.007,2616,99.9989,2616,5.43175,2616,6.90831,2616,78.9231,2616,78.9335,
2610,106.166,2610,-0.0508006,2610,99.9782,2610,99.9674,2610,5.57049,2610,6.47128,2610,79.3149,2610,79.2951,
2604,106.128,2604,-0.0500418,2604,99.9964,2604,100.002,2604,5.88377,2604,5.97492,2604,79.7988,2604,79.7896,
2598,106.139,2598,-0.0503981,2598,99.9839,2598,99.9648,2598,6.26613,2598,5.53406,2598,80.2,2598,80.1975,
2592,106.088,2592,-0.0482446,2592,99.9997,2592,99.9809,2592,6.69416,2592,5.26857,2592,80.6504,2592,80.6805,
2586,106.164,2586,-0.0500734,2586,100.008,2586,99.9921,2586,7.26346,2586,5.13111,2586,81.1419,2586,81.1573,
2580,106.234,2580,-0.0461791,2580,99.9848,2580,99.953,2580,7.7952,2580,5.17868,2580,81.4584,2580,81.4152,
2574,106.218,2574,-0.0484817,2574,99.9812,2574,99.9719,2574,8.25988,2574,5.36927,2574,81.9296,2574,81.892,
2568,106.246,2568,-0.0509264,2568,100,2568,99.9774,2568,8.67023,2568,5.67184,2568,82.4678,2568,82.4648,
2562,106.366,2562,-0.0457476,2562,99.9898,2562,99.9511,2562,8.83329,2562,6.12094,2562,83.0187,2562,83.0333,
2556,106.487,2556,-0.0421705,2556,99.991,2556,99.9655,2556,8.73138,2556,6.6055,2556,83.5792,2556,83.5874,
2550,106.28,2550,-0.0497461,2550,99.9978,2550,99.9751,2550,8.36664,2550,7.08014,2550,84.156,2550,84.1764,
2544,106.432,2544,-0.0491917,2544,99.991,2544,99.9715,2544,7.72893,2544,7.59012,2544,84.5784,2544,84.5644,
2538,106.557,2538,-0.0496233,2538,100.008,2538,99.9978,2538,7.09663,2538,7.97642,2538,85.1183,2538,85.0987,
2532,106.451,2532,-0.0471704,2532,99.9975,2532,99.9695,2532,6.57329,2532,8.11792,2532,85.6558,2532,85.6553,
2526,106.57,2526,-0.0472732,2526,99.9708,2526,99.9575,2526,6.20843,2526,7.98434,2526,86.1583,2526,86.1424,
2520,106.674,2520,-0.0486408,2520,99.9935,2520,99.9704,2520,6.02542,2520,7.60395,2520,86.7164,2520,86.716,
2514,106.567,2514,-0.0469724,2514,100.001,2514,99.9642,2514,6.05013,2514,7.04899,2514,87.193,2514,87.1878,
2508,106.615,2508,-0.0503064,2508,100.005,2508,99.9756,2508,6.26526,2508,6.47959,2508,87.6973,2508,87.6777,
2502,106.795,2502,-0.0487349,2502,99.9943,2502,99.9605,2502,6.62414,2502,5.97886,2502,88.1656,2502,88.1501,
2496,106.754,2496,-0.0499505,2496,99.9878,2496,99.9672,2496,7.08834,2496,5.67874,2496,88.5936,2496,88.5973,
2490,106.79,2490,-0.0449292,2490,99.9918,2490,99.9706,2490,7.6576,2490,5.58,2490,89.0081,2490,89.0172,
2484,107.014,2484,-0.0498766,2484,99.9953,2484,99.9752,2484,8.30133,2484,5.67656,2484,89.3923,2484,89.3749,
2478,106.976,2478,-0.0479649,2478,99.9891,2478,99.9594,2478,8.93374,2478,5.92678,2478,89.7316,2478,89.7263,
2472,106.92,2472,-0.0465741,2472,99.9975,2472,99.965,2472,9.42374,2472,6.29873,2472,90.0676,2472,90.0583,
2466,107.08,2466,-0.0456421,2466,99.9955,2466,99.9708,2466,9.63229,2466,6.78465,2466,90.3363,2466,90.339,
2460,107.111,2460,-0.0498102,2460,99.9935,2460,99.9656,2460,9.36828,2460,7.30754,2460,90.563,2460,90.5549,
2454,107.048,2454,-0.0498221,2454,99.9835,2454,99.9623,2454,8.67401,2454,7.73971,2454,90.7437,2454,90.7324,
2448,107.297,2448,-0.0495507,2448,100.006,2448,99.9733,2448,7.64464,2448,7.818,2448,90.8842,2448,90.8802,
2442,107.558,2442,-0.048369,2442,99.9818,2442,99.9644,2442,6.87741,2442,7.7368,2442,90.9396,2442,90.9409,
2436,107.503,2436,-0.047583,2436,99.9996,2436,99.9648,2436,6.71464,2436,8.15232,2436,90.9753,2436,90.9718,
2430,107.561,2430,-0.0479036,2430,99.9924,2430,99.9786,2430,6.43003,2430,7.9489,2430,90.9418,2430,90.94,
2424,107.851,2424,-0.0497938,2424,99.9998,2424,99.966,2424,6.32848,2424,7.37346,2424,90.8276,2424,90.836,
2418,107.904,2418,-0.0473904,2418,99.9964,2418,99.9705,2418,6.47457,2418,6.73196,2418,90.672,2418,90.6719,
2412,107.795,2412,-0.0495827,2412,99.9997,2412,99.9713,2412,6.87989,2412,6.25362,2412,90.4555,2412,90.4616,
2406,107.922,2406,-0.0503417,2406,99.9889,2406,99.9704,2406,7.41385,2406,5.93537,2406,90.1737,2406,90.1798,
2400,108.165,2400,-0.0454373,2400,99.9973,2400,99.9656,2400,8.04769,2400,5.82281,2400,89.8329,2400,89.8425,
2394,108.128,2394,-0.0503963,2394,99.9993,2394,99.9716,2394,8.76077,2394,5.93441,2394,89.4598,2394,89.4508,
2388,108.065,2388,-0.0497928,2388,99.9972,2388,99.97,2388,9.55555,2388,6.27834,2388,89.0091,2388,89.0209,
2382,108.265,2382,-0.04873,2382,99.9971,2382,99.9681,2382,10.1159,2382,6.79852,2382,88.5197,2382,88.5275,
2376,108.523,2376,-0.0481936,2376,99.9902,2376,99.9659,2376,10.1655,2376,7.42198,2376,87.9803,2376,88.0033,
2370,108.468,2370,-0.0506266,2370,99.9961,2370,99.9592,2370,9.69026,2370,8.07072,2370,87.4206,2370,87.4477,
2364,108.367,2364,-0.0479724,2364,99.9941,2364,99.964,2364,8.90986,2364,8.62186,2364,86.8313,2364,86.851,
2358,108.54,2358,-0.0484284,2358,100.003,2358,99.9763,2358,8.08872,2358,8.92027,2358,86.201,2358,86.2242,
2352,108.801,2352,-0.0470139,2352,99.9973,2352,99.9706,2352,7.39842,2352,8.82815,2352,85.5353,2352,85.5423,
2346,108.763,2346,-0.0504494,2346,99.9858,2346,99.9598,2346,6.95274,2346,8.3643,2346,84.8217,2346,84.8226,
2340,108.608,2340,-0.0482426,2340,99.9911,2340,99.9608,2340,6.73802,2340,7.64303,2340,84.0975,2340,84.1106,
2334,108.614,2334,-0.0487039,2334,99.9999,2334,99.9739,2334,6.78567,2334,6.91955,2334,83.4261,2334,83.4579,
2328,108.806,2328,-0.0498015,2328,100.01,2328,99.9815,2328,7.04897,2328,6.36582,2328,82.7776,2328,82.8193,
2322,108.846,2322,-0.0505464,2322,99.9924,2322,99.9697,2322,7.55963,2322,6.09511,2322,82.0596,2322,82.0882,
2316,108.591,2316,-0.0484477,2316,99.9997,2316,99.9658,2316,8.23521,2316,6.09317,2316,81.3153,2316,81.329,
2310,108.385,2310,-0.0485828,2310,100.014,2310,99.9745,2310,9.01018,2310,6.33979,2310,80.6241,2310,80.6449,
2304,108.364,2304,-0.0518413,2304,100.004,2304,99.9848,2304,9.79375,2304,6.79771,2304,80.0017,2304,80.0336,
2298,108.332,2298,-0.0492849,2298,100.007,2298,99.998,2298,10.4257,2298,7.4546,2298,79.3754,2298,79.4022,
2292,108.103,2292,-0.0515826,2292,100.001,2292,99.9766,2292,10.4847,2292,8.16032,2292,78.6962,2292,78.7343,
2286,107.64,2286,-0.051573,2286,99.9901,2286,99.9725,2286,9.96983,2286,8.79608,2286,78.0502,2286,78.0788,
2280,107.074,2280,-0.0537774,2280,100.01,2280,99.9718,2280,9.05018,2280,9.11577,2280,77.569,2280,77.6046,
2274,106.557,2274,-0.050929,2274,100.013,2274,99.975,2274,8.12758,2274,8.96553,2274,77.0349,2274,77.0533,
2268,105.962,2268,-0.0546746,2268,100.003,2268,99.9818,2268,7.57957,2268,8.47854,2268,76.5479,2268,76.5736,
2262,105.686,2262,-0.0485479,2262,99.9995,2262,99.9662,2262,7.47288,2262,7.85923,2262,76.0721,2262,76.0987,
2256,106.224,2256,-0.0494403,2256,99.9866,2256,99.961,2256,7.58828,2256,7.3212,2256,75.6879,2256,75.7249,
2250,106.497,2250,-0.0459074,2250,99.9945,2250,99.9618,2250,7.95926,2250,6.96729,2250,75.3553,2250,75.3823,
2244,106.704,2244,-0.0506864,2244,99.9826,2244,99.9652,2244,8.46024,2244,6.84663,2244,75.0451,2244,75.0624,
2238,106.871,2238,-0.0460556,2238,99.9939,2238,99.9669,2238,9.06293,2238,7.00009,2238,74.8228,2238,74.8551,
2232,107.095,2232,-0.0472398,2232,99.9999,2232,99.9704,2232,9.79027,2232,7.3768,2232,74.6613,2232,74.6653,
2226,107.285,2226,-0.0486679,2226,99.9921,2226,99.9639,2226,10.5324,2226,7.90355,2226,74.5295,2226,74.5469,
2220,107.425,2220,-0.0496143,2220,99.9894,2220,99.9622,2220,11.1779,2220,8.62444,2220,74.4857,2220,74.5014,
2214,107.494,2214,-0.0506632,2214,99.9899,2214,99.9699,2214,11.2659,2214,9.3875,2214,74.494,2214,74.5247,
2208,107.56,2208,-0.0495721,2208,99.9922,2208,99.9651,2208,10.717,2208,9.9964,2208,74.5878,2208,74.5957,
2202,107.627,2202,-0.0503328,2202,99.9816,2202,99.9573,2202,9.81964,2202,10.2286,2202,74.7486,2202,74.7694,
2196,107.696,2196,-0.0475433,2196,100.008,2196,99.9723,2196,8.97532,2196,9.96416,2196,75.0008,2196,75.0173,
2190,107.712,2190,-0.0515456,2190,99.997,2190,99.9717,2190,8.47755,2190,9.30648,2190,75.3365,2190,75.3388,
2184,107.454,2184,-0.0511786,2184,99.9988,2184,99.9622,2184,8.42359,2184,8.48679,2184,75.6914,2184,75.7064,
2178,106.831,2178,-0.0494252,2178,99.9969,2178,99.9656,2178,8.89821,2178,8.01518,2178,76.1233,2178,76.1332,
2172,106.741,2172,-0.0478924,2172,99.9964,2172,99.9683,2172,9.49403,2172,7.90924,2172,76.6187,2172,76.6296,
2166,106.629,2166,-0.0463979,2166,99.9982,2166,99.9675,2166,10.1344,2166,8.11242,2166,77.1465,2166,77.1516,
2160,106.548,2160,-0.0488788,2160,99.9766,2160,99.9517,2160,10.7474,2160,8.50883,2160,77.7173,2160,77.7154,
2154,106.52,2154,-0.0437227,2154,99.9828,2154,99.9536,2154,11.4474,2154,9.08399,2154,78.3613,2154,78.3519,
2148,106.478,2148,-0.0507938,2148,100.004,2148,99.9727,2148,12.1247,2148,9.84784,2148,79.0522,2148,79.0522,
2142,106.445,2142,-0.0479019,2142,99.9935,2142,99.9565,2142,12.1387,2142,10.48,2142,79.7374,2142,79.7418,
2136,106.41,2136,-0.047738,2136,99.995,2136,99.967,2136,11.3979,2136,10.7186,2136,80.483,2136,80.4764,
2130,106.436,2130,-0.0443298,2130,99.9899,2130,99.9625,2130,10.4569,2130,10.5598,2130,81.289,2130,81.2825,
2124,106.463,2124,-0.0485722,2124,99.9947,2124,99.9696,2124,9.86565,2124,10.2309,2124,82.1116,2124,82.1016,
2118,106.47,2118,-0.0467747,2118,100.008,2118,99.9755,2118,9.6061,2118,9.5744,2118,82.9581,2118,82.9456,
2112,106.497,2112,-0.0478425,2112,99.9906,2112,99.9612,2112,9.83715,2112,9.05495,2112,83.7763,2112,83.7773,
2106,106.502,2106,-0.0482422,2106,99.9956,2106,99.9664,2106,10.3358,2106,8.84624,2106,84.6042,2106,84.591,
2100,106.5,2100,-0.0503226,2100,99.9957,2100,99.9584,2100,10.9417,2100,9.00219,2100,85.4171,2100,85.4121,
2094,106.493,2094,-0.045435,2094,99.9966,2094,99.9665,2094,11.6148,2094,9.42195,2094,86.2129,2094,86.2024,
2088,106.488,2088,-0.0504235,2088,99.9952,2088,99.9584,2088,12.4159,2088,10.0152,2088,86.9662,2088,86.9496,
2082,106.488,2082,-0.0490948,2082,99.995,2082,99.9632,2082,13.1463,2082,10.6994,2082,87.6791,2082,87.6617,
2076,106.47,2076,-0.0479633,2076,100.002,2076,99.9658,2076,13.3434,2076,11.3245,2076,88.3335,2076,88.3301,
2070,106.459,2070,-0.0502708,2070,99.9916,2070,99.968,2070,12.7199,2070,11.6256,2070,88.8917,2070,88.891,
2064,106.464,2064,-0.0472562,2064,99.9896,2064,99.9558,2064,11.6505,2064,11.4131,2064,89.3539,2064,89.3472,
2058,106.455,2058,-0.0473855,2058,99.9868,2058,99.9696,2058,10.8079,2058,10.7738,2058,89.7184,2058,89.7074,
2052,106.438,2052,-0.0502072,2052,99.9943,2052,99.9758,2052,10.5653,2052,10.0404,2052,89.9878,2052,89.9793,
2046,106.437,2046,-0.0510882,2046,99.9953,2046,99.9679,2046,10.8113,2046,9.55573,2046,90.1198,2046,90.1063,
2040,106.435,2040,-0.0486443,2040,99.9862,2040,99.9628,2040,11.2826,2040,9.47255,2040,90.1144,2040,90.1192,
2034,106.423,2034,-0.0462964,2034,99.9949,2034,99.9691,2034,11.8663,2034,9.75401,2034,89.9974,2034,89.9869,
2028,106.426,2028,-0.0469884,2028,99.9883,2028,99.9632,2028,12.6196,2028,10.2563,2028,89.7216,2028,89.7243,
2022,106.42,2022,-0.0470609,2022,99.989,2022,99.9564,2022,13.4398,2022,10.9115,2022,89.3393,2022,89.3464,
2016,106.406,2016,-0.0481499,2016,100.001,2016,99.9703,2016,13.8653,2016,11.5575,2016,88.8481,2016,88.8525,
2010,106.388,2010,-0.0480059,2010,99.9941,2010,99.9715,2010,13.5154,2010,11.9282,2010,88.2282,2010,88.2288,
2004,106.375,2004,-0.0501755,2004,99.9988,2004,99.9638,2004,12.5993,2004,11.7879,2004,87.4909,2004,87.5024,
1998,106.353,1998,-0.0483359,1998,99.9831,1998,99.9546,1998,11.6911,1998,11.1806,1998,86.6848,1998,86.7056,
1992,106.299,1992,-0.0472191,1992,100.002,1992,99.9714,1992,11.256,1992,10.4465,1992,85.7856,1992,85.7955,
1986,106.26,1986,-0.0497653,1986,100.009,1986,99.9842,1986,11.3207,1986,9.95257,1986,84.8332,1986,84.8448,
1980,106.227,1980,-0.0519827,1980,99.9935,1980,99.9718,1980,11.6849,1980,9.89346,1980,83.8336,1980,83.8401,
1974,106.203,1974,-0.0469859,1974,99.9924,1974,99.9626,1974,12.1604,1974,10.1831,1974,82.8007,1974,82.8173,
1968,106.167,1968,-0.048323,1968,99.9991,1968,99.9676,1968,12.8113,1968,10.7162,1968,81.7906,1968,81.8157,
1962,106.152,1962,-0.050692,1962,99.9956,1962,99.9747,1962,13.6474,1962,11.3829,1962,80.7556,1962,80.7749,
1956,106.162,1956,-0.0488667,1956,99.9906,1956,99.9535,1956,14.235,1956,11.992,1956,79.7779,1956,79.7852,
1950,106.153,1950,-0.0480319,1950,99.9953,1950,99.9702,1950,13.965,1950,12.2666,1950,78.8097,1950,78.8306,
1944,106.115,1944,-0.0494577,1944,100.002,1944,99.9768,1944,12.8781,1944,11.9991,1944,77.8979,1944,77.9078,
1938,106.067,1938,-0.0508653,1938,100.001,1938,99.9754,1938,11.9339,1938,11.3393,1938,77.0525,1938,77.0785,
1932,106.01,1932,-0.0478189,1932,99.9979,1932,99.9727,1932,11.7013,1932,10.7178,1932,76.3009,1932,76.3114,
1926,105.912,1926,-0.0501578,1926,100.004,1926,99.9828,1926,11.9761,1926,10.4859,1926,75.6623,1926,75.6715,
1920,105.845,1920,-0.0493901,1920,100.002,1920,99.9856,1920,12.4194,1920,10.669,1920,75.1104,1920,75.1584,
1914,105.837,1914,-0.0521277,1914,99.9963,1914,99.9722,1914,13.0349,1914,11.1466,1914,74.5743,1914,74.5825,
1908,105.875,1908,-0.0499547,1908,99.9836,1908,99.9669,1908,13.915,1908,11.8416,1908,74.2329,1908,74.2551,
1902,105.8,1902,-0.0491317,1902,100,1902,100.001,1902,14.7206,1902,12.6037,1902,74.0443,1902,74.0739,
1896,105.751,1896,-0.041449,1896,100.004,1896,99.9742,1896,14.8531,1896,13.044,1896,73.8568,1896,73.854,
1890,105.617,1890,-0.0444665,1890,99.992,1890,99.9589,1890,14.2029,1890,12.8944,1890,73.8754,1890,73.8663,
1884,105.502,1884,-0.0530605,1884,99.9989,1884,99.9817,1884,13.3045,1884,12.3115,1884,74.1173,1884,74.1101,
1878,105.477,1878,-0.05164,1878,100.021,1878,99.9717,1878,12.8435,1878,11.7372,1878,74.412,1878,74.4274,
1872,105.399,1872,-0.0555837,1872,99.9882,1872,99.9661,1872,12.984,1872,11.5409,1872,74.8015,1872,74.7835,
1866,105.236,1866,-0.0441419,1866,100.102,1866,100.087,1866,13.4401,1866,11.8233,1866,75.4382,1866,75.4123,
1860,105.24,1860,-0.0507358,1860,100.008,1860,99.9761,1860,14.0627,1860,12.401,1860,76.0328,1860,75.9821,
1854,105.135,1854,-0.0505424,1854,99.9993,1854,99.9784,1854,15.1521,1854,13.2149,1854,76.9469,1854,76.9712,
1848,105.073,1848,-0.0546522,1848,99.9896,1848,99.9463,1848,16.1687,1848,13.942,1848,77.861,1848,77.8684,
1842,105.12,1842,-0.0525204,1842,99.9753,1842,99.952,1842,16.208,1842,14.2055,1842,78.8633,1842,78.8595,
1836,104.896,1836,-0.0491428,1836,99.9987,1836,99.9796,1836,15.2428,1836,13.805,1836,80.1741,1836,80.1815,
1830,104.762,1830,-0.0508497,1830,100.005,1830,99.9886,1830,14.4241,1830,13.155,1830,81.299,1830,81.2331,
1824,104.803,1824,-0.0461386,1824,100.003,1824,99.977,1824,14.2679,1824,12.7266,1824,82.6514,1824,82.6,
1818,104.695,1818,-0.0453595,1818,100.058,1818,100.002,1818,14.5768,1818,12.7865,1818,84.0257,1818,84.0089,
1812,104.539,1812,-0.0469343,1812,99.9918,1812,99.97,1812,15.0689,1812,13.2565,1812,85.4131,1812,85.3777,
1806,104.444,1806,-0.0471943,1806,99.9898,1806,99.9552,1806,15.9269,1806,14.0341,1806,86.7595,1806,86.7262,
1800,104.397,1800,-0.0456385,1800,99.9852,1800,99.9682,1800,17.039,1800,14.8193,1800,88.0082,1800,87.9822,
1794,104.262,1794,-0.0495172,1794,100.004,1794,99.9793,1794,17.5907,1794,15.135,1794,89.1616,1794,89.1339,
1788,104.132,1788,-0.0527387,1788,99.9903,1788,99.9579,1788,16.9818,1788,14.7739,1788,90.0899,1788,90.0572,
1782,104.107,1782,-0.0475887,1782,99.9994,1782,99.9649,1782,15.8759,1782,14.067,1782,90.8334,1782,90.8098,
1776,103.985,1776,-0.0477433,1776,99.9993,1776,99.9722,1776,15.3825,1776,13.5732,1776,91.3124,1776,91.2856,
1770,103.821,1770,-0.0493922,1770,100.014,1770,99.9748,1770,15.4822,1770,13.5594,1770,91.4684,1770,91.4672,
1764,103.819,1764,-0.0517749,1764,99.999,1764,99.9722,1764,15.8517,1764,14.0105,1764,91.2797,1764,91.2696,
1758,103.685,1758,-0.0450001,1758,100.001,1758,99.9692,1758,16.8294,1758,14.778,1758,90.7762,1758,90.7693,
1752,103.575,1752,-0.0471949,1752,99.9947,1752,99.9602,1752,18.0699,1752,15.4846,1752,89.8896,1752,89.8929,
1746,103.553,1746,-0.047921,1746,100.003,1746,99.9744,1746,18.3552,1746,15.5775,1746,88.72,1746,88.7266,
1740,103.39,1740,-0.0483636,1740,99.994,1740,99.9661,1740,17.4126,1740,14.9939,1740,87.2573,1740,87.2735,
1734,103.353,1734,-0.0525814,1734,100.002,1734,99.9698,1734,16.4554,1734,14.2657,1734,85.5336,1734,85.562,
1728,103.269,1728,-0.0502728,1728,99.9972,1728,99.9718,1728,16.1154,1728,13.9008,1728,83.6165,1728,83.6399,
1722,103.167,1722,-0.052415,1722,99.993,1722,99.9674,1722,16.148,1722,14.0713,1722,81.5737,1722,81.6078,
1716,103.167,1716,-0.0466538,1716,99.9944,1716,99.9672,1716,16.5826,1716,14.7255,1716,79.4959,1716,79.5317,
1710,103.016,1710,-0.0486341,1710,99.999,1710,99.9666,1710,17.6858,1710,15.5737,1710,77.3839,1710,77.4288,
1704,103.028,1704,-0.0464538,1704,99.9937,1704,99.9684,1704,18.7469,1704,15.9673,1704,75.3773,1704,75.4233,
1698,102.881,1698,-0.0488691,1698,99.9977,1698,99.9704,1698,18.578,1698,15.657,1698,73.4218,1698,73.4597,
1692,102.901,1692,-0.0456294,1692,99.9964,1692,99.9663,1692,17.3747,1692,14.9512,1692,71.5834,1692,71.624,
1686,102.785,1686,-0.0479675,1686,100.004,1686,99.9738,1686,16.6014,1686,14.4517,1686,69.9336,1686,69.9679,
1680,102.829,1680,-0.0486868,1680,99.9917,1680,99.9635,1680,16.3956,1680,14.5113,1680,68.4485,1680,68.4799,
1674,102.737,1674,-0.0474095,1674,99.992,1674,99.9566,1674,16.674,1674,15.1363,1674,67.2026,1674,67.2328,
1668,102.755,1668,-0.0478596,1668,100,1668,99.9661,1668,17.8904,1668,16.0648,1668,66.1868,1668,66.2099,
1662,102.714,1662,-0.0472788,1662,100.002,1662,99.9736,1662,19.0272,1662,16.4612,1662,65.4301,1662,65.4559,
1656,102.792,1656,-0.0491126,1656,99.9986,1656,99.9639,1656,19.1269,1656,16.2946,1656,64.9404,1656,64.9674,
1650,102.717,1650,-0.0502434,1650,99.9935,1650,99.9658,1650,18.3184,1650,15.7932,1650,64.699,1650,64.7104,
1644,102.813,1644,-0.0519996,1644,100.007,1644,99.97,1644,17.749,1644,15.4759,1644,64.7335,1644,64.7408,
1638,102.751,1638,-0.0472652,1638,99.9928,1638,99.9627,1638,17.6435,1638,15.7497,1638,65.0764,1638,65.0859,
1632,102.84,1632,-0.0473883,1632,99.9998,1632,99.9758,1632,18.0537,1632,16.6943,1632,65.6932,1632,65.688,
1626,102.826,1626,-0.0499719,1626,99.9824,1626,99.9647,1626,19.4624,1626,17.7608,1626,66.6228,1626,66.6234,
1620,102.844,1620,-0.0480861,1620,99.9969,1620,99.9728,1620,21.0066,1620,18.1745,1620,67.8132,1620,67.7967,
1614,102.936,1614,-0.0492094,1614,99.9964,1614,99.9681,1614,20.9732,1614,17.7355,1614,69.3163,1614,69.303,
1608,102.897,1608,-0.0511373,1608,99.9985,1608,99.9679,1608,19.8465,1608,17.0747,1608,71.0872,1608,71.0708,
1602,102.997,1602,-0.0475953,1602,99.9889,1602,99.9757,1602,19.1654,1602,16.8794,1602,73.0996,1602,73.0727,
1596,103.071,1596,-0.0496211,1596,99.9888,1596,99.9603,1596,19.0534,1596,17.5155,1596,75.2995,1596,75.2703,
1590,103.043,1590,-0.0519337,1590,100.002,1590,99.9734,1590,20.0877,1590,18.6707,1590,77.656,1590,77.6206,
1584,103.178,1584,-0.0468486,1584,99.9982,1584,99.9728,1584,21.9904,1584,19.3845,1584,80.0353,1584,79.9955,
1578,103.251,1578,-0.0512039,1578,99.9919,1578,99.9589,1578,22.7289,1578,19.1059,1578,82.3242,1578,82.2908,
1572,103.235,1572,-0.0464068,1572,99.999,1572,99.9687,1572,21.8131,1572,18.2706,1572,84.3913,1572,84.3558,
1566,103.336,1566,-0.0453263,1566,100.004,1566,99.9745,1566,20.7677,1566,17.7657,1566,86.1173,1566,86.0978,
1560,103.454,1560,-0.0511742,1560,100.01,1560,99.9806,1560,20.2754,1560,18.2184,1560,87.3239,1560,87.3018,
1554,103.491,1554,-0.046934,1554,99.9842,1554,99.9507,1554,20.8359,1554,19.357,1554,87.8662,1554,87.8582,
1548,103.516,1548,-0.0516044,1548,100.003,1548,99.972,1548,22.7276,1548,20.0869,1548,87.6966,1548,87.7082,
1542,103.629,1542,-0.0503583,1542,99.9913,1542,99.9675,1542,23.8575,1542,19.713,1542,86.8311,1542,86.8526,
1536,103.75,1536,-0.0431341,1536,99.9935,1536,99.9606,1536,22.9329,1536,18.6999,1536,85.3365,1536,85.3576,
1530,103.792,1530,-0.0473105,1530,99.9918,1530,99.9534,1530,21.4956,1530,18.1379,1530,83.2854,1530,83.3147,
1524,103.804,1524,-0.0473829,1524,99.9998,1524,99.9658,1524,20.5977,1524,18.698,1524,80.9099,1524,80.9465,
1518,103.863,1518,-0.0488418,1518,100.001,1518,99.9634,1518,21.2876,1518,19.9385,1518,78.3188,1518,78.3533,
1512,103.962,1512,-0.0489389,1512,100.005,1512,99.9636,1512,23.5175,1512,20.49,1512,75.6901,1512,75.7379,
1506,104.056,1506,-0.0465727,1506,99.9882,1506,99.9613,1506,24.3398,1506,19.8524,1506,73.2694,1506,73.3111,
1500,104.134,1500,-0.0467271,1500,100,1500,99.9732,1500,23.022,1500,18.802,1500,71.1409,1500,71.1779,
1494,104.178,1494,-0.048167,1494,99.9983,1494,99.9653,1494,21.5321,1494,18.6309,1494,69.3893,1494,69.4185,
1488,104.217,1488,-0.0479609,1488,99.9914,1488,99.9562,1488,21.0561,1488,19.72,1488,68.1092,1488,68.1249,
1482,104.24,1482,-0.047679,1482,99.9988,1482,99.9622,1482,22.5224,1482,20.9898,1482,67.3748,1482,67.3886,
1476,104.261,1476,-0.0474246,1476,99.9956,1476,99.9741,1476,24.7049,1476,21.0872,1476,67.2173,1476,67.2209,
1470,104.299,1470,-0.0453812,1470,99.9985,1470,99.9754,1470,24.8013,1470,20.0999,1470,67.6643,1470,67.6639,
1464,104.343,1464,-0.0428118,1464,99.9997,1464,99.9697,1464,23.312,1464,19.4608,1464,68.7325,1464,68.7152,
1458,104.375,1458,-0.0481854,1458,100.005,1458,99.9696,1458,22.0171,1458,20.2869,1458,70.39,1458,70.3689,
1452,104.413,1452,-0.0489095,1452,99.999,1452,99.9611,1452,22.4538,1452,21.875,1452,72.5095,1452,72.4803,
1446,104.436,1446,-0.0482077,1446,99.9973,1446,99.9513,1446,25.0723,1446,22.5036,1446,74.868,1446,74.847,
1440,104.433,1440,-0.045791,1440,100,1440,99.9717,1440,26.5693,1440,21.7082,1440,77.1287,1440,77.1026,
1434,104.437,1434,-0.0470288,1434,99.9898,1434,99.9618,1434,25.2416,1434,20.8246,1434,78.5467,1434,78.5453,
1428,104.429,1428,-0.0492565,1428,100,1428,99.9644,1428,23.4886,1428,21.481,1428,78.3491,1428,78.3773,
1422,104.446,1422,-0.0473021,1422,99.987,1422,99.9739,1422,23.6158,1422,23.1648,1422,75.7644,1422,75.8459,
1416,104.477,1416,-0.0452027,1416,99.996,1416,99.963,1416,26.3659,1416,23.8942,1416,70.6431,1416,70.7573,
1410,104.528,1410,-0.0497094,1410,99.9359,1410,99.8775,1410,28.2083,1410,23.0069,1410,63.3279,1410,63.4807,
1404,104.283,1404,-0.0522499,1404,99.9941,1404,100.008,1404,27.0387,1404,21.9941,1404,54.5956,1404,54.7304,
1398,104.359,1398,-0.0451585,1398,99.9804,1398,99.9684,1398,25.1791,1398,22.7131,1398,45.7948,1398,45.9356,
1392,104.077,1392,-0.046008,1392,100.001,1392,99.9898,1392,25.1651,1392,24.4204,1392,37.8113,1392,37.9327,
1386,104.031,1386,-0.047676,1386,100.027,1386,99.9657,1386,27.8738,1386,24.8219,1386,30.8517,1386,30.956,
1380,103.77,1380,-0.0489172,1380,100,1380,100.003,1380,29.6441,1380,23.4987,1380,25.166,1380,25.2377,
1374,103.508,1374,-0.0476179,1374,100.003,1374,99.9812,1374,28.1045,1374,22.6909,1374,20.7294,1374,20.7982,
1368,103.241,1368,-0.0495008,1368,100.008,1368,99.9739,1368,25.8165,1368,23.808,1368,17.2477,1368,17.3041,
1362,103.084,1362,-0.0498673,1362,100.005,1362,99.9351,1362,26.2379,1362,25.3146,1362,14.5139,1362,14.5539,
1356,103.279,1356,-0.0476659,1356,99.9975,1356,99.9648,1356,29.4694,1356,24.9953,1356,12.342,1356,12.3763,
1350,103.244,1350,-0.0462674,1350,99.999,1350,99.9739,1350,30.1336,1350,23.3825,1350,10.662,1350,10.6906,
1344,103.236,1344,-0.047749,1344,99.9908,1344,99.9539,1344,27.4921,1344,23.4588,1344,9.35259,1344,9.37359,
1338,103.172,1338,-0.0474106,1338,99.9977,1338,99.9536,1338,25.8822,1338,25.3579,1338,8.3192,1338,8.3365,
1332,103.126,1332,-0.0491704,1332,99.9988,1332,99.9639,1332,28.3853,1332,26.1562,1332,7.52901,1332,7.54188,
1326,102.958,1326,-0.0482737,1326,100.002,1326,99.9716,1326,31.1618,1326,24.8057,1326,6.91649,1326,6.93316,
1320,102.798,1320,-0.050048,1320,99.9934,1320,99.966,1320,29.9214,1320,24.0856,1320,6.46265,1320,6.47391,
1314,102.512,1314,-0.0499415,1314,99.9932,1314,99.9712,1314,27.3472,1314,25.8,1314,6.13256,1314,6.14317,
1308,102.111,1308,-0.0465048,1308,99.9998,1308,99.9703,1308,28.0232,1308,27.5468,1308,5.9108,1308,5.92078,
1302,102.075,1302,-0.0498921,1302,99.9962,1302,99.9702,1302,31.8018,1302,26.8231,1302,5.79804,1302,5.80881,
1296,101.969,1296,-0.0441261,1296,99.9996,1296,99.9619,1296,32.4714,1296,25.6432,1296,5.77419,1296,5.78634,
1290,101.885,1290,-0.0495616,1290,99.9891,1290,99.9642,1290,29.4334,1290,27.1188,1290,5.85558,1290,5.86054,
1284,101.779,1284,-0.0459226,1284,99.9918,1284,99.9592,1284,28.996,1284,29.1695,1284,6.01274,1284,6.02116,
1278,101.672,1278,-0.0433262,1278,99.9934,1278,99.9652,1278,33.1638,1278,28.5499,1278,6.25268,1278,6.25345,
1272,101.582,1272,-0.0462834,1272,99.9921,1272,99.9711,1272,34.5981,1272,27.1972,1272,6.54429,1272,6.54186,
1266,101.454,1266,-0.0478912,1266,99.9926,1266,99.9663,1266,31.4582,1266,28.6364,1266,6.8426,1266,6.84898,
1260,101.384,1260,-0.0502469,1260,99.9965,1260,99.9689,1260,30.8883,1260,30.5848,1260,7.07335,1260,7.0823,
1254,101.285,1254,-0.0465764,1254,99.9835,1254,99.9508,1254,34.979,1254,29.458,1254,7.10542,1254,7.11437,
1248,101.171,1248,-0.050113,1248,99.9956,1248,99.9533,1248,36.1392,1248,28.1284,1248,6.85156,1248,6.86503,
1242,101.092,1242,-0.0502719,1242,99.9907,1242,99.9549,1242,32.5456,1242,29.9606,1242,6.2746,1242,6.29269,
1236,100.993,1236,-0.0470263,1236,99.9956,1236,99.9769,1236,32.1239,1236,31.357,1236,5.45683,1236,5.46878,
1230,100.889,1230,-0.0462284,1230,100.001,1230,99.9798,1230,36.594,1230,29.5201,1230,4.55183,1230,4.56554,
1224,100.813,1224,-0.0469746,1224,99.9963,1224,99.9618,1224,36.5281,1224,28.8711,1224,3.69012,1224,3.70681,
1218,100.738,1218,-0.0510033,1218,99.9999,1218,99.9596,1218,32.2528,1218,31.3485,1218,2.95723,1218,2.97367,
1212,100.651,1212,-0.0458885,1212,100.002,1212,99.9741,1212,33.7744,1212,31.682,1212,2.36551,1212,2.37649,
1206,100.585,1206,-0.0488834,1206,100.003,1206,99.9773,1206,38.1872,1206,29.6326,1206,1.90836,1206,1.91981,
1200,100.529,1200,-0.0471842,1200,99.9961,1200,99.963,1200,35.7697,1200,30.8035,1200,1.56112,1200,1.57176,
1194,100.466,1194,-0.0459084,1194,99.9784,1194,99.9476,1194,32.8384,1194,33.2114,1194,1.29938,1194,1.30576,
1188,100.4,1188,-0.0466259,1188,99.983,1188,99.9706,1188,37.0752,1188,32.0466,1188,1.10229,1188,1.10563,
1182,100.354,1182,-0.0479247,1182,99.9925,1182,99.9742,1182,39.5634,1182,31.2938,1182,0.951041,1182,0.954772,
1176,100.342,1176,-0.0435627,1176,99.9829,1176,99.9477,1176,35.5013,1176,34.1336,1176,0.828735,1176,0.833545,
1170,100.314,1170,-0.0472739,1170,99.9864,1170,99.9572,1170,36.0837,1170,34.5917,1170,0.744873,1170,0.752765,
1164,100.292,1164,-0.0509239,1164,99.988,1164,99.967,1164,41.3022,1164,32.8926,1164,0.686172,1164,0.68904,
1158,100.29,1158,-0.0467265,1158,99.993,1158,99.969,1158,39.0698,1158,34.9355,1158,0.637324,1158,0.637061,
1152,100.283,1152,-0.0497558,1152,99.9969,1152,99.9686,1152,36.5512,1152,36.4576,1152,0.606551,1152,0.6086,
1146,100.301,1146,-0.0441288,1146,99.9831,1146,99.9571,1146,41.9781,1146,34.4156,1146,0.58319,1146,0.588443,
1140,100.327,1140,-0.0507297,1140,99.9978,1140,99.9621,1140,42.1066,1140,35.4493,1140,0.587327,1140,0.592549,
1134,100.359,1134,-0.0462507,1134,99.9893,1134,99.9682,1134,38.0758,1134,37.4382,1134,0.596441,1134,0.60056,
1128,100.403,1128,-0.0493378,1128,99.9957,1128,99.9699,1128,42.0155,1128,35.2985,1128,0.626817,1128,0.632634,
1122,100.461,1122,-0.0481522,1122,99.9972,1122,99.9674,1122,43.9376,1122,35.8281,1122,0.676685,1122,0.679767,
1116,100.521,1116,-0.0474689,1116,99.9842,1116,99.9599,1116,38.6729,1116,38.1285,1116,0.752002,1116,0.757104,
1110,100.568,1110,-0.0476197,1110,99.9925,1110,99.9652,1110,42.0274,1110,36.1455,1110,0.866462,1110,0.86639,
1104,100.611,1104,-0.045238,1104,99.9964,1104,99.972,1104,44.9347,1104,36.602,1104,1.03424,1104,1.03523,
1098,100.653,1098,-0.0455323,1098,100.005,1098,99.9748,1098,39.6318,1098,39.1776,1098,1.29298,1098,1.29221,
1092,100.703,1092,-0.0449129,1092,99.9935,1092,99.9664,1092,42.7666,1092,37.44,1092,1.69371,1092,1.69171,
1086,100.742,1086,-0.0470023,1086,99.9962,1086,99.9666,1086,46.1959,1086,38.4274,1086,2.34167,1086,2.33893,
1080,100.779,1080,-0.0459917,1080,99.9915,1080,99.9494,1080,41.3872,1080,40.7821,1080,3.31949,1080,3.31135,
1074,100.792,1074,-0.0429198,1074,99.9929,1074,99.9524,1074,45.0986,1074,39.0871,1074,4.53233,1074,4.52158,
1068,100.791,1068,-0.0464934,1068,99.9884,1068,99.9608,1068,47.7234,1068,40.9693,1068,5.22436,1068,5.22225,
1062,100.785,1062,-0.0482313,1062,99.9952,1062,99.9728,1062,43.0739,1062,42.2065,1062,4.64808,1062,4.6662,
1056,100.76,1056,-0.0468707,1056,99.9917,1056,99.9623,1056,48.0293,1056,40.6662,1056,3.4499,1056,3.47034,
1050,100.727,1050,-0.0433382,1050,99.9923,1050,99.9683,1050,48.0174,1050,43.1996,1050,2.43376,1050,2.44847,
1044,100.666,1044,-0.0482554,1044,99.9874,1044,99.9648,1044,45.2754,1044,42.4958,1044,1.76981,1044,1.78364,
1038,100.58,1038,-0.0485054,1038,99.9915,1038,99.965,1038,50.988,1038,42.1897,1038,1.35747,1038,1.36404,
1032,100.458,1032,-0.0481346,1032,99.9946,1032,99.9601,1032,47.2171,1032,44.3086,1032,1.09452,1032,1.1049,
1026,100.327,1026,-0.0449245,1026,99.9847,1026,99.9671,1026,48.1806,1026,42.3363,1026,0.934737,1026,0.936514,
1020,100.152,1020,-0.0441889,1020,99.9862,1020,99.9522,1020,51.5046,1020,44.3168,1020,0.841421,1020,0.843403,
1014,99.9562,1014,-0.0478845,1014,99.9871,1014,99.9612,1014,46.4101,1014,44.5637,1014,0.792639,1014,0.796033,
1008,99.7026,1008,-0.0506851,1008,99.9891,1008,99.9597,1008,51.8137,1008,44.0016,1008,0.789821,1008,0.788184,
1002,99.4116,1002,-0.0488537,1002,99.9933,1002,99.9654,1002,50.0238,1002,46.6157,1002,0.816354,1002,0.819082,
996,99.0748,996,-0.0519665,996,99.987,996,99.9641,996,49.9653,996,45.4162,996,0.890074,996,0.893539,
990,98.7462,990,-0.0476844,990,99.9935,990,99.9688,990,54.2054,990,47.6538,990,1.00938,990,1.01233,
984,98.4691,984,-0.0488972,984,99.9872,984,99.9625,984,50.2721,984,47.5745,984,1.2084,984,1.21185,
978,98.3496,978,-0.0489336,978,99.9874,978,99.9602,978,55.2048,978,48.1744,978,1.51293,978,1.51162,
972,98.3617,972,-0.048462,972,99.9822,972,99.9584,972,52.4293,972,49.1189,972,1.925,972,1.92196,
966,98.1533,966,-0.049496,966,99.9862,966,99.9589,966,54.6296,966,48.4702,966,2.42169,966,2.42213,
960,97.8535,960,-0.0509216,960,99.9854,960,99.9746,960,54.9159,960,50.0524,960,2.77589,960,2.78374,
954,97.6235,954,-0.0464748,954,99.9755,954,99.9533,954,54.1285,954,48.827,954,2.71369,954,2.72585,
948,97.3844,948,-0.0500492,948,99.9893,948,99.9632,948,56.8552,948,50.6764,948,2.30184,948,2.32073,
942,97.2114,942,-0.0479,942,100.007,942,99.9812,942,53.6452,942,49.682,942,1.81581,942,1.82859,
936,97.1281,936,-0.0494544,936,99.9824,936,99.9586,936,57.7953,936,51.4391,936,1.43078,936,1.44388,
930,96.9563,930,-0.0452639,930,99.9948,930,99.9666,930,54.2965,930,51.164,930,1.16288,930,1.17018,
924,96.7544,924,-0.0507523,924,99.9763,924,99.9539,924,58.552,924,52.5822,924,0.991342,924,0.996317,
918,96.5797,918,-0.0483521,918,99.9839,918,99.9575,918,56.3266,918,52.7887,918,0.886126,918,0.892575,
912,96.4291,912,-0.0476486,912,99.9878,912,99.965,912,59.5058,912,53.8839,912,0.829019,912,0.834637,
906,96.2993,906,-0.0528054,906,100.001,906,99.9706,906,57.8746,906,53.9696,906,0.81764,906,0.82501,
900,96.2246,900,-0.051041,900,99.9985,900,99.9578,900,60.1906,900,54.8229,900,0.835939,900,0.843308,
894,111.388,894,0.0181353,894,99.9544,894,100.118,894,58.6374,894,54.7797,894,0.898956,894,0.87797,
888,111.192,888,0.004528,888,100.02,888,99.985,888,61.858,888,55.9615,888,0.986778,888,0.997521,
882,111.765,882,0.00407862,882,99.66,882,99.6124,882,58.8512,882,55.1379,882,1.06871,882,1.07752,
876,111.561,876,0.00542617,876,99.5966,876,99.6113,876,62.4349,876,56.732,876,1.16909,876,1.1913,
870,111.353,870,0.00220052,870,99.7651,870,99.7579,870,60.2774,870,56.3846,870,1.29763,870,1.29966,
864,111.241,864,0.0041377,864,100.028,864,99.7085,864,63.2675,864,57.8327,864,1.35627,864,1.36531,
858,110.906,858,0.00363153,858,99.7601,858,99.7224,858,61.4264,858,57.9914,858,1.39065,858,1.39795,
852,110.142,852,0.00292007,852,99.7927,852,99.7378,852,63.8213,852,58.8166,852,1.39764,852,1.41087,
846,109.146,846,0.00304984,846,99.738,846,99.7524,846,63.4032,846,59.4489,846,1.39268,846,1.40517,
840,108.027,840,0.00499965,840,99.7487,840,99.7192,840,64.0449,840,59.5666,840,1.39865,840,1.40836,
834,106.961,834,0.000944113,834,99.7747,834,99.6997,834,65.0809,834,60.2898,834,1.43422,834,1.44063,
828,106.19,828,0.00654819,828,99.8438,828,99.7387,828,64.0628,828,60.3042,828,1.50697,828,1.515028,
822,105.732,822,0.0022226,822,99.822,822,99.7272,822,65.8314,822,60.9826,822,1.63846,822,1.64703,
816,105.518,816,0.00176593,816,99.8583,816,99.811,816,65.1311,816,61.5604,816,1.83276,816,1.85158,
810,105.59,810,0.000500197,810,99.7831,810,99.7324,810,66.0812,810,61.9766,810,2.10944,810,2.12436,
804,105.696,804,0.00294314,804,99.7775,804,99.7743,804,66.7475,804,62.6842,804,2.47442,804,2.49686,
798,107.844,798,0.00050346,798,99.854,798,99.8605,798,66.5956,798,63.3121,798,2.9775,798,2.9976,
792,108.055,792,0.000566122,792,99.9711,792,99.8753,792,67.5515,792,63.7161,792,3.62582,792,3.65295,
786,108.417,786,0.00140151,786,99.8251,786,99.7607,786,67.9373,786,64.0838,786,4.43632,786,4.46988,
780,108.722,780,0.00295506,780,99.8718,780,99.8251,780,67.9212,780,64.4673,780,5.48629,780,5.52609,
774,109.077,774,0.00448656,774,99.8259,774,99.7928,774,68.4132,774,64.7199,774,6.87595,774,6.91596,
768,109.39,768,0.00294302,768,99.9261,768,99.8239,768,68.8306,768,65.2944,768,8.71958,768,8.77531,
[...]
200,125.188,200,0.00549173,200,100.052,200,100.022,200,-0.00428844,200,-0.0032535,200,0.000446183,200,-0.00545874,

Baseline 100%T,
Baseline 100%T
Collection Time: 06.10.2022 12:03:25
Operator Name  :
Scan Software Version: 4.20(470)
Parameter List :
Instrument                        Cary 500
Instrument Version                8.01
Start (nm)                        3000.000
Stop (nm)                         200.000
X Mode                            Nanometers
Y Mode                            %T
UV-Vis Scan Rate (nm/min)         600.000
UV-Vis Data Interval (nm)         2.000
UV-Vis Ave. Time (sec)            0.100
UV-Vis SBW (nm)                   2.000
Slit Height                       Full
Beam Mode                         Double
Signal-to-noise Mode              Off
UV Source                         On
Vis Source                        On
Third Source                      Off
Source Changeover (nm)            350.00
Detector Changeover (nm)          900.00
Grating Changeover (nm)           900.00
Baseline Correction               On
Baseline Type                     Zero/baseline correction
Baseline File Name                C:\Users\test
Baseline Std Ref File Name
Cycle Mode                        Off
Comments
Method Log     :
Method Name    : C:\Users\test
Date/Time stamp: 04.04.2022 12:56:40
Method Modifications:
X Start nm Changed: 04.04.2022 11:46:49, Old: 800.00, New: 900.00
Detector changeover Changed: 04.04.2022 11:46:49, Old:   800.00, New:   900.00
Grating changeover Changed: 04.04.2022 11:46:49, Old:   800.00, New:   900.00
X Start nm Changed: 04.04.2022 11:47:07, Old:900.000, New:3000.000
Y mode Changed: 04.04.2022 11:47:07, Old:Abs, New:%T
Baseline Correction Changed: 04.04.2022 11:48:27, Old:0, New:2
Common Interval nm Changed: 04.04.2022 11:49:14, Old:    1.000, New:    5.000
X Start nm Changed: 04.04.2022 11:50:47, Old:3000.000, New:900.000
X Start nm Changed: 04.04.2022 11:53:29, Old:900.000, New:3000.000
Common Interval nm Changed: 04.04.2022 11:53:29, Old:    5.000, New:    2.000
X Start nm Changed: 04.04.2022 12:37:45, Old:3000.000, New:900.000
Common Interval nm Changed: 04.04.2022 12:37:45, Old:    2.000, New:   10.000
All Traces Changed: 04.04.2022 12:52:13, Old:0, New:1
X Start nm Changed: 04.04.2022 12:56:19, Old:900.000, New:3000.000
Common Interval nm Changed: 04.04.2022 12:56:19, Old:   10.000, New:    2.000
Saved as C:\Users\test
Opened C:\Users\test
End Method Modifications
<SBW (nm)> , 2.00
<Energy> , 3.00
<Slit height> , Full
<Current Wavelength> , 900.000
<SBW (nm)> , 2.00
<Energy> , 18.20
<Slit height> , Full
<Current Wavelength> , 200.000

Baseline 0%T,
Baseline 0%T
Collection Time: 06.10.2022 12:08:54
Operator Name  :
Scan Software Version: 4.20(470)
Parameter List :
Instrument                        Cary 500
Instrument Version                8.01
Start (nm)                        3000.000
Stop (nm)                         200.000
X Mode                            Nanometers
Y Mode                            %T
UV-Vis Scan Rate (nm/min)         600.000
UV-Vis Data Interval (nm)         2.000
UV-Vis Ave. Time (sec)            0.100
UV-Vis SBW (nm)                   2.000
Slit Height                       Full
Beam Mode                         Double
Signal-to-noise Mode              Off
UV Source                         On
Vis Source                        On
Third Source                      Off
Source Changeover (nm)            350.00
Detector Changeover (nm)          900.00
Grating Changeover (nm)           900.00
Baseline Correction               On
Baseline Type                     Zero/baseline correction
Baseline File Name                C:\Users\test
Baseline Std Ref File Name
Cycle Mode                        Off
Comments
Method Log     :
Method Name    : C:\Users\test
Date/Time stamp: 04.04.2022 12:56:40
Method Modifications:
X Start nm Changed: 04.04.2022 11:46:49, Old: 800.00, New: 900.00
Detector changeover Changed: 04.04.2022 11:46:49, Old:   800.00, New:   900.00
Grating changeover Changed: 04.04.2022 11:46:49, Old:   800.00, New:   900.00
X Start nm Changed: 04.04.2022 11:47:07, Old:900.000, New:3000.000
Y mode Changed: 04.04.2022 11:47:07, Old:Abs, New:%T
Baseline Correction Changed: 04.04.2022 11:48:27, Old:0, New:2
Common Interval nm Changed: 04.04.2022 11:49:14, Old:    1.000, New:    5.000
X Start nm Changed: 04.04.2022 11:50:47, Old:3000.000, New:900.000
X Start nm Changed: 04.04.2022 11:53:29, Old:900.000, New:3000.000
Common Interval nm Changed: 04.04.2022 11:53:29, Old:    5.000, New:    2.000
X Start nm Changed: 04.04.2022 12:37:45, Old:3000.000, New:900.000
Common Interval nm Changed: 04.04.2022 12:37:45, Old:    2.000, New:   10.000
All Traces Changed: 04.04.2022 12:52:13, Old:0, New:1
X Start nm Changed: 04.04.2022 12:56:19, Old:900.000, New:3000.000
Common Interval nm Changed: 04.04.2022 12:56:19, Old:   10.000, New:    2.000
Saved as C:\Users\test
Opened C:\Users\test
End Method Modifications
<SBW (nm)> , 2.00
<Energy> , 3.00
<Slit height> , Full
<Current Wavelength> , 896.000
<SBW (nm)> , 2.00
<Energy> , 20.89
<Slit height> , Full
<Current Wavelength> , 200.000

blank,
blank
Collection Time: 06.10.2022 12:14:10
Operator Name  :
Scan Software Version: 4.20(470)
Parameter List :
Instrument                        Cary 500
Instrument Version                8.01
Start (nm)                        3000.000
Stop (nm)                         200.000
X Mode                            Nanometers
Y Mode                            %T
UV-Vis Scan Rate (nm/min)         600.000
UV-Vis Data Interval (nm)         2.000
UV-Vis Ave. Time (sec)            0.100
UV-Vis SBW (nm)                   2.000
Slit Height                       Full
Beam Mode                         Double
Signal-to-noise Mode              Off
UV Source                         On
Vis Source                        On
Third Source                      Off
Source Changeover (nm)            350.00
Detector Changeover (nm)          900.00
Grating Changeover (nm)           900.00
Baseline Correction               On
Baseline Type                     Zero/baseline correction
Baseline File Name
Baseline Std Ref File Name
Cycle Mode                        Off
Comments
Method Log     :
Method Name    : C:\Users\test
Date/Time stamp: 04.04.2022 12:56:40
Method Modifications:
X Start nm Changed: 04.04.2022 11:46:49, Old: 800.00, New: 900.00
Detector changeover Changed: 04.04.2022 11:46:49, Old:   800.00, New:   900.00
Grating changeover Changed: 04.04.2022 11:46:49, Old:   800.00, New:   900.00
X Start nm Changed: 04.04.2022 11:47:07, Old:900.000, New:3000.000
Y mode Changed: 04.04.2022 11:47:07, Old:Abs, New:%T
Baseline Correction Changed: 04.04.2022 11:48:27, Old:0, New:2
Common Interval nm Changed: 04.04.2022 11:49:14, Old:    1.000, New:    5.000
X Start nm Changed: 04.04.2022 11:50:47, Old:3000.000, New:900.000
X Start nm Changed: 04.04.2022 11:53:29, Old:900.000, New:3000.000
Common Interval nm Changed: 04.04.2022 11:53:29, Old:    5.000, New:    2.000
X Start nm Changed: 04.04.2022 12:37:45, Old:3000.000, New:900.000
Common Interval nm Changed: 04.04.2022 12:37:45, Old:    2.000, New:   10.000
All Traces Changed: 04.04.2022 12:52:13, Old:0, New:1
X Start nm Changed: 04.04.2022 12:56:19, Old:900.000, New:3000.000
Common Interval nm Changed: 04.04.2022 12:56:19, Old:   10.000, New:    2.000
Saved as C:\Users\test
Opened C:\Users\test
End Method Modifications
<SBW (nm)> , 2.00
<Energy> , 3.00
<Slit height> , Full
<Current Wavelength> , 900.000
<SBW (nm)> , 2.00
<Energy> , 18.20
<Slit height> , Full
<Current Wavelength> , 200.000

blank2,
blank2
Collection Time: 06.10.2022 12:18:56
Operator Name  :
Scan Software Version: 4.20(470)
Parameter List :
Instrument                        Cary 500
Instrument Version                8.01
Start (nm)                        3000.000
Stop (nm)                         200.000
X Mode                            Nanometers
Y Mode                            %T
UV-Vis Scan Rate (nm/min)         600.000
UV-Vis Data Interval (nm)         2.000
UV-Vis Ave. Time (sec)            0.100
UV-Vis SBW (nm)                   2.000
Slit Height                       Full
Beam Mode                         Double
Signal-to-noise Mode              Off
UV Source                         On
Vis Source                        On
Third Source                      Off
Source Changeover (nm)            350.00
Detector Changeover (nm)          900.00
Grating Changeover (nm)           900.00
Baseline Correction               On
Baseline Type                     Zero/baseline correction
Baseline File Name
Baseline Std Ref File Name
Cycle Mode                        Off
Comments
Method Log     :
Method Name    : C:\Users\test
Date/Time stamp: 04.04.2022 12:56:40
Method Modifications:
X Start nm Changed: 04.04.2022 11:46:49, Old: 800.00, New: 900.00
Detector changeover Changed: 04.04.2022 11:46:49, Old:   800.00, New:   900.00
Grating changeover Changed: 04.04.2022 11:46:49, Old:   800.00, New:   900.00
X Start nm Changed: 04.04.2022 11:47:07, Old:900.000, New:3000.000
Y mode Changed: 04.04.2022 11:47:07, Old:Abs, New:%T
Baseline Correction Changed: 04.04.2022 11:48:27, Old:0, New:2
Common Interval nm Changed: 04.04.2022 11:49:14, Old:    1.000, New:    5.000
X Start nm Changed: 04.04.2022 11:50:47, Old:3000.000, New:900.000
X Start nm Changed: 04.04.2022 11:53:29, Old:900.000, New:3000.000
Common Interval nm Changed: 04.04.2022 11:53:29, Old:    5.000, New:    2.000
X Start nm Changed: 04.04.2022 12:37:45, Old:3000.000, New:900.000
Common Interval nm Changed: 04.04.2022 12:37:45, Old:    2.000, New:   10.000
All Traces Changed: 04.04.2022 12:52:13, Old:0, New:1
X Start nm Changed: 04.04.2022 12:56:19, Old:900.000, New:3000.000
Common Interval nm Changed: 04.04.2022 12:56:19, Old:   10.000, New:    2.000
Saved as C:\Users\test
Opened C:\Users\test
End Method Modifications
<SBW (nm)> , 2.00
<Energy> , 3.00
<Slit height> , Full
<Current Wavelength> , 900.000
<SBW (nm)> , 2.00
<Energy> , 18.20
<Slit height> , Full
<Current Wavelength> , 200.000

p1-fresh-glass,
p1-fresh-glass
Collection Time: 06.10.2022 12:27:17
Operator Name  :
Scan Software Version: 4.20(470)
Parameter List :
Instrument                        Cary 500
Instrument Version                8.01
Start (nm)                        3000.000
Stop (nm)                         200.000
X Mode                            Nanometers
Y Mode                            %T
UV-Vis Scan Rate (nm/min)         600.000
UV-Vis Data Interval (nm)         2.000
UV-Vis Ave. Time (sec)            0.100
UV-Vis SBW (nm)                   2.000
Slit Height                       Full
Beam Mode                         Double
Signal-to-noise Mode              Off
UV Source                         On
Vis Source                        On
Third Source                      Off
Source Changeover (nm)            350.00
Detector Changeover (nm)          900.00
Grating Changeover (nm)           900.00
Baseline Correction               On
Baseline Type                     Zero/baseline correction
Baseline File Name
Baseline Std Ref File Name
Cycle Mode                        Off
Comments
Method Log     :
Method Name    : C:\Users\test
Date/Time stamp: 04.04.2022 12:56:40
Method Modifications:
X Start nm Changed: 04.04.2022 11:46:49, Old: 800.00, New: 900.00
Detector changeover Changed: 04.04.2022 11:46:49, Old:   800.00, New:   900.00
Grating changeover Changed: 04.04.2022 11:46:49, Old:   800.00, New:   900.00
X Start nm Changed: 04.04.2022 11:47:07, Old:900.000, New:3000.000
Y mode Changed: 04.04.2022 11:47:07, Old:Abs, New:%T
Baseline Correction Changed: 04.04.2022 11:48:27, Old:0, New:2
Common Interval nm Changed: 04.04.2022 11:49:14, Old:    1.000, New:    5.000
X Start nm Changed: 04.04.2022 11:50:47, Old:3000.000, New:900.000
X Start nm Changed: 04.04.2022 11:53:29, Old:900.000, New:3000.000
Common Interval nm Changed: 04.04.2022 11:53:29, Old:    5.000, New:    2.000
X Start nm Changed: 04.04.2022 12:37:45, Old:3000.000, New:900.000
Common Interval nm Changed: 04.04.2022 12:37:45, Old:    2.000, New:   10.000
All Traces Changed: 04.04.2022 12:52:13, Old:0, New:1
X Start nm Changed: 04.04.2022 12:56:19, Old:900.000, New:3000.000
Common Interval nm Changed: 04.04.2022 12:56:19, Old:   10.000, New:    2.000
Saved as C:\Users\test
Opened C:\Users\test
End Method Modifications
<SBW (nm)> , 2.00
<Energy> , 3.00
<Slit height> , Full
<Current Wavelength> , 896.000
<SBW (nm)> , 2.00
<Energy> , 20.89
<Slit height> , Full
<Current Wavelength> , 200.000

p5-fresh-glass,
p5-fresh-glass
Collection Time: 06.10.2022 12:32:17
Operator Name  :
Scan Software Version: 4.20(470)
Parameter List :
Instrument                        Cary 500
Instrument Version                8.01
Start (nm)                        3000.000
Stop (nm)                         200.000
X Mode                            Nanometers
Y Mode                            %T
UV-Vis Scan Rate (nm/min)         600.000
UV-Vis Data Interval (nm)         2.000
UV-Vis Ave. Time (sec)            0.100
UV-Vis SBW (nm)                   2.000
Slit Height                       Full
Beam Mode                         Double
Signal-to-noise Mode              Off
UV Source                         On
Vis Source                        On
Third Source                      Off
Source Changeover (nm)            350.00
Detector Changeover (nm)          900.00
Grating Changeover (nm)           900.00
Baseline Correction               On
Baseline Type                     Zero/baseline correction
Baseline File Name
Baseline Std Ref File Name
Cycle Mode                        Off
Comments
Method Log     :
Method Name    : C:\Users\test
Date/Time stamp: 04.04.2022 12:56:40
Method Modifications:
X Start nm Changed: 04.04.2022 11:46:49, Old: 800.00, New: 900.00
Detector changeover Changed: 04.04.2022 11:46:49, Old:   800.00, New:   900.00
Grating changeover Changed: 04.04.2022 11:46:49, Old:   800.00, New:   900.00
X Start nm Changed: 04.04.2022 11:47:07, Old:900.000, New:3000.000
Y mode Changed: 04.04.2022 11:47:07, Old:Abs, New:%T
Baseline Correction Changed: 04.04.2022 11:48:27, Old:0, New:2
Common Interval nm Changed: 04.04.2022 11:49:14, Old:    1.000, New:    5.000
X Start nm Changed: 04.04.2022 11:50:47, Old:3000.000, New:900.000
X Start nm Changed: 04.04.2022 11:53:29, Old:900.000, New:3000.000
Common Interval nm Changed: 04.04.2022 11:53:29, Old:    5.000, New:    2.000
X Start nm Changed: 04.04.2022 12:37:45, Old:3000.000, New:900.000
Common Interval nm Changed: 04.04.2022 12:37:45, Old:    2.000, New:   10.000
All Traces Changed: 04.04.2022 12:52:13, Old:0, New:1
X Start nm Changed: 04.04.2022 12:56:19, Old:900.000, New:3000.000
Common Interval nm Changed: 04.04.2022 12:56:19, Old:   10.000, New:    2.000
Saved as C:\Users\test
Opened C:\Users\test
End Method Modifications
<SBW (nm)> , 2.00
<Energy> , 3.00
<Slit height> , Full
<Current Wavelength> , 896.000
<SBW (nm)> , 2.00
<Energy> , 20.89
<Slit height> , Full
<Current Wavelength> , 200.000

ir hot mirror face1,
ir hot mirror face1
Collection Time: 06.10.2022 12:37:18
Operator Name  :
Scan Software Version: 4.20(470)
Parameter List :
Instrument                        Cary 500
Instrument Version                8.01
Start (nm)                        3000.000
Stop (nm)                         200.000
X Mode                            Nanometers
Y Mode                            %T
UV-Vis Scan Rate (nm/min)         600.000
UV-Vis Data Interval (nm)         2.000
UV-Vis Ave. Time (sec)            0.100
UV-Vis SBW (nm)                   2.000
Slit Height                       Full
Beam Mode                         Double
Signal-to-noise Mode              Off
UV Source                         On
Vis Source                        On
Third Source                      Off
Source Changeover (nm)            350.00
Detector Changeover (nm)          900.00
Grating Changeover (nm)           900.00
Baseline Correction               On
Baseline Type                     Zero/baseline correction
Baseline File Name
Baseline Std Ref File Name
Cycle Mode                        Off
Comments
Method Log     :
Method Name    : C:\Users\test
Date/Time stamp: 04.04.2022 12:56:40
Method Modifications:
X Start nm Changed: 04.04.2022 11:46:49, Old: 800.00, New: 900.00
Detector changeover Changed: 04.04.2022 11:46:49, Old:   800.00, New:   900.00
Grating changeover Changed: 04.04.2022 11:46:49, Old:   800.00, New:   900.00
X Start nm Changed: 04.04.2022 11:47:07, Old:900.000, New:3000.000
Y mode Changed: 04.04.2022 11:47:07, Old:Abs, New:%T
Baseline Correction Changed: 04.04.2022 11:48:27, Old:0, New:2
Common Interval nm Changed: 04.04.2022 11:49:14, Old:    1.000, New:    5.000
X Start nm Changed: 04.04.2022 11:50:47, Old:3000.000, New:900.000
X Start nm Changed: 04.04.2022 11:53:29, Old:900.000, New:3000.000
Common Interval nm Changed: 04.04.2022 11:53:29, Old:    5.000, New:    2.000
X Start nm Changed: 04.04.2022 12:37:45, Old:3000.000, New:900.000
Common Interval nm Changed: 04.04.2022 12:37:45, Old:    2.000, New:   10.000
All Traces Changed: 04.04.2022 12:52:13, Old:0, New:1
X Start nm Changed: 04.04.2022 12:56:19, Old:900.000, New:3000.000
Common Interval nm Changed: 04.04.2022 12:56:19, Old:   10.000, New:    2.000
Saved as C:\Users\test
Opened C:\Users\test
End Method Modifications
<SBW (nm)> , 2.00
<Energy> , 3.00
<Slit height> , Full
<Current Wavelength> , 896.000
<SBW (nm)> , 2.00
<Energy> , 20.89
<Slit height> , Full
<Current Wavelength> , 200.000

ir hot mirror face2,
ir hot mirror face2
Collection Time: 06.10.2022 12:42:10
Operator Name  :
Scan Software Version: 4.20(470)
Parameter List :
Instrument                        Cary 500
Instrument Version                8.01
Start (nm)                        3000.000
Stop (nm)                         200.000
X Mode                            Nanometers
Y Mode                            %T
UV-Vis Scan Rate (nm/min)         600.000
UV-Vis Data Interval (nm)         2.000
UV-Vis Ave. Time (sec)            0.100
UV-Vis SBW (nm)                   2.000
Slit Height                       Full
Beam Mode                         Double
Signal-to-noise Mode              Off
UV Source                         On
Vis Source                        On
Third Source                      Off
Source Changeover (nm)            350.00
Detector Changeover (nm)          900.00
Grating Changeover (nm)           900.00
Baseline Correction               On
Baseline Type                     Zero/baseline correction
Baseline File Name
Baseline Std Ref File Name
Cycle Mode                        Off
Comments
Method Log     :
Method Name    : C:\Users\test
Date/Time stamp: 04.04.2022 12:56:40
Method Modifications:
X Start nm Changed: 04.04.2022 11:46:49, Old: 800.00, New: 900.00
Detector changeover Changed: 04.04.2022 11:46:49, Old:   800.00, New:   900.00
Grating changeover Changed: 04.04.2022 11:46:49, Old:   800.00, New:   900.00
X Start nm Changed: 04.04.2022 11:47:07, Old:900.000, New:3000.000
Y mode Changed: 04.04.2022 11:47:07, Old:Abs, New:%T
Baseline Correction Changed: 04.04.2022 11:48:27, Old:0, New:2
Common Interval nm Changed: 04.04.2022 11:49:14, Old:    1.000, New:    5.000
X Start nm Changed: 04.04.2022 11:50:47, Old:3000.000, New:900.000
X Start nm Changed: 04.04.2022 11:53:29, Old:900.000, New:3000.000
Common Interval nm Changed: 04.04.2022 11:53:29, Old:    5.000, New:    2.000
X Start nm Changed: 04.04.2022 12:37:45, Old:3000.000, New:900.000
Common Interval nm Changed: 04.04.2022 12:37:45, Old:    2.000, New:   10.000
All Traces Changed: 04.04.2022 12:52:13, Old:0, New:1
X Start nm Changed: 04.04.2022 12:56:19, Old:900.000, New:3000.000
Common Interval nm Changed: 04.04.2022 12:56:19, Old:   10.000, New:    2.000
Saved as C:\Users\test
Opened C:\Users\test
End Method Modifications
<SBW (nm)> , 2.00
<Energy> , 3.00
<Slit height> , Full
<Current Wavelength> , 900.000
<SBW (nm)> , 2.00
<Energy> , 20.89
<Slit height> , Full
<Current Wavelength> , 200.000